Folder: pypi-mirror-191/packages/rheofit/rheofit-0.1.0.tar.gz/rheofit-0.1.0/data/Rheology_finds_distinct_glass_and_jamming_transitions_in_emulsions

Note: README.md
# PyPI code 191

This repo contains 40000 packages uploaded to PyPI between 
2023-02-10 06:02 and 2023-02-15 00:29.

The repo is 84% (33955/40000) complete.

Package contents can be found [in the code branch](https://github.com/pypi-data/pypi-mirror-191/tree/code/packages).

A browsable package list for all repositories [all packages here](https://pypi-data.github.io/website/repositories/pypi-mirror-191).

File: 2011.11806_fig2a_Shear rate_Stress_s-1_Pa.csv
0775,,0758,,0734,,0710,,0703,,0687,,0670,,0666,,0644,,0627,,0573,,0453,
X,Y,X,Y,X,Y,X,Y,X,Y,X,Y,X,Y,X,Y,X,Y,X,Y,X,Y,X,Y
0.00465881,116.974,0.00467376,60.1967,0.00464767,33.6246,0.00466074,13.5676,0.00465966,2.70244,0.00467451,0.858604,0.00466074,0.488876,0.00465505,0.280526,0.0046621,0.0450223,0.344676,0.0165841,0.52131,0.0122058,2.0223,0.0120159
0.00964819,128.046,0.0100304,65.3343,0.00999122,36.2436,0.010002,14.5911,0.0100082,3.07999,0.00999706,0.831528,0.0215481,0.479528,0.0100019,0.263429,0.00995914,0.0345218,0.61923,0.0250526,0.788977,0.0175494,3.66768,0.0214731
0.0218301,140.969,0.0209684,72.0993,0.0215183,39.6833,0.0212555,15.8779,0.0214765,3.54598,0.021555,0.843613,0.0464235,0.504379,0.0214862,0.24289,0.0213126,0.02849,1.11014,0.0421761,1.1858,0.0249239,6.59195,0.0389057
0.0463402,155.809,0.0463397,80.5631,0.0462531,44.2025,0.0461072,17.2481,0.0462468,3.84517,0.0461361,0.848677,0.0993202,0.564993,0.0470727,0.223275,0.0461847,0.0329234,2.02982,0.0663025,1.79251,0.0366939,11.8819,0.070072
0.100293,179.573,0.100308,92.1235,0.0998109,50.1204,0.100731,19.5228,0.0989729,3.8541,0.461618,1.20939,0.214754,0.677592,0.099892,0.217901,0.099878,0.0421419,3.57941,0.119678,2.71897,0.0535292,21.4256,0.125693
0.215077,210.859,0.214882,106.73,0.21424,57.3833,0.214896,22.2712,0.21514,4.40891,1.00316,1.66814,0.462444,0.781135,0.215517,0.24556,0.21453,0.0625306,6.60302,0.20754,4.12565,0.0782152,,
0.462972,246.831,0.462683,123.797,0.462897,66.1972,0.462663,26.3214,0.463191,5.84274,2.1775,2.4543,0.997532,1.09042,0.463356,0.323475,0.463476,0.103054,11.6479,0.363574,6.22359,0.117297,,
1.00005,284.371,0.994609,140.555,1.00109,77.8419,0.998332,33.0546,0.998507,7.96859,0.215089,0.885867,2.148,1.61332,0.996616,0.445184,0.995593,0.180949,21.379,0.700063,9.40513,0.177746,,
2.14394,325.801,2.13805,162.52,2.13482,91.4844,2.13809,44.5753,2.14302,9.47592,0.0995071,0.707333,4.61801,2.92117,2.15214,0.6938,2.15596,0.339927,,,14.1586,0.268833,,
4.62407,383.04,4.64465,196.366,4.62878,117.426,4.64024,65.1189,4.63298,13.617,4.62632,3.35982,9.96905,5.17491,4.61873,1.27492,4.60794,0.683967,,,21.4769,0.41479,,
9.96108,493.548,9.89754,263.473,9.92771,163.715,9.92456,96.0891,9.94512,21.4063,10,5.55087,21.3872,10.6899,9.93942,2.48182,9.9535,1.37067,,,,,,
21.4648,732.05,21.3744,408.756,21.4348,267.086,21.4106,146.474,21.3752,35.941,21.6154,11.2884,0.01,0.466845,21.4644,5.17302,21.4071,2.77832,,,,,,