Folder: pypi-mirror-191/packages/rheofit/rheofit-0.1.2.tar.gz/rheofit-0.1.2/data/Rheology_finds_distinct_glass_and_jamming_transitions_in_emulsions

Note: README.md
# PyPI code 191

This repo contains 40000 packages uploaded to PyPI between 
2023-02-10 06:02 and 2023-02-15 00:29.

The repo is 84% (33955/40000) complete.

Package contents can be found [in the code branch](https://github.com/pypi-data/pypi-mirror-191/tree/code/packages).

A browsable package list for all repositories [all packages here](https://pypi-data.github.io/website/repositories/pypi-mirror-191).

File: 2011.11806_fig2b_Shear rate_Stress_s-1_Pa.csv
0750,,0575,,0591,,0615,,0636,,0651,,0660,,0689,,0704,,0480,
X,Y,X,Y,X,Y,X,Y,X,Y,X,Y,X,Y,X,Y,X,Y,X,Y
0.00470236,84.8484,0.00469461,0.0449995,0.00470494,0.111451,0.00469951,0.420109,0.00470578,1.1925,0.00469094,3.32281,0.00469627,16.3079,0.00468737,40.7125,0.00469135,53.2571,1.01441,0.00905495
0.0101196,96.7881,0.00954854,0.0337089,0.0101007,0.0998338,0.0100894,0.394749,0.0101012,1.11109,0.0100821,3.13288,0.010103,17.8058,0.0100993,44.2705,0.0101487,60.1623,2.18699,0.017851
0.0216622,106.66,0.0216929,0.028738,0.0217705,0.0895628,0.0217372,0.374909,0.0217311,1.22241,0.0217358,3.07143,0.0217245,19.6668,0.0217,50.0833,0.0217778,68.0214,4.69664,0.0352473
0.0469587,119.75,0.0467623,0.022127,0.046923,0.0813754,0.0469549,0.383324,0.0469205,1.33587,0.0468431,3.15126,0.0467386,22.5061,0.0472061,57.2578,0.0462345,75.542,10.1295,0.0728765
0.100948,136.475,0.101397,0.0206046,0.101213,0.0783117,0.099569,0.442728,0.10116,1.57347,0.101644,3.41743,0.101829,26.2431,0.1023,65.7297,0.102247,90.3106,21.9116,0.155131
0.216415,154.209,0.218531,0.0246933,0.220508,0.0771252,0.218155,0.524572,0.217536,1.99077,0.218142,3.9715,0.217312,31.1039,0.217246,76.8795,0.218367,104.542,,
0.468257,177.139,0.469351,0.032465,0.468391,0.0907492,0.470354,0.69192,0.469267,2.67915,0.469565,4.94613,0.468103,37.5702,0.469003,90.8591,0.471993,124.047,,
1.01136,209.518,1.00901,0.0520293,1.01264,0.131754,1.01288,0.973791,1.01464,3.68307,1.01747,6.41937,1.01225,46.3843,1.01382,108.332,1.01614,150.451,,
21.8966,475.945,2.19153,0.0921777,2.18665,0.224846,2.18103,1.46568,2.17819,5.28958,2.17596,9.05533,2.18456,57.135,2.18223,130.701,2.19201,180.648,,
2.19685,234.946,4.7059,0.17227,4.69816,0.405467,4.7034,2.34659,4.72331,7.93933,4.72041,12.4083,4.70233,72.9693,4.69788,163.81,4.73887,214.98,,
4.7246,262.636,10.1432,0.340197,10.1148,0.781502,10.1238,3.93366,10.1129,12.4404,10.0928,18.6781,10.1174,100.402,10.1171,209.788,10.2769,255.174,,
10.1608,328.193,21.8483,0.714948,21.8691,1.62552,21.777,6.83324,21.8343,19.9676,21.7757,28.9387,21.7764,141.905,21.823,285.514,21.894,324.856,,